Starting Unit			kB/atom		kB/atom		kB/atom		J/g/K
Ending Unit			erg/g/K		Mbar-cc/g/K	J/g/K		J/mol/K
Element		AMass
1		1.007980	8.248638E+07	8.248638	8.248638E-05	1.007980
2		4.002600	2.077265E+07	2.077265	2.077265E-05	4.002600
3		6.940940	1.197887E+07	1.197887	1.197887E-05	6.940940
4		9.012180	9.225806E+06	0.922581	9.225806E-06	9.012180
5		10.810030	7.691433E+06	0.769143	7.691433E-06	10.810030
6		12.011140	6.922293E+06	0.692229	6.922293E-06	12.011140
7		14.006760	5.936036E+06	0.593604	5.936036E-06	14.006760
8		15.999390	5.196737E+06	0.519674	5.196737E-06	15.999390
9		18.998400	4.376401E+06	0.437640	4.376401E-06	18.998400
10		20.179450	4.120262E+06	0.412026	4.120262E-06	20.179450
11		22.989770	3.616592E+06	0.361659	3.616592E-06	22.989770
12		24.305050	3.420879E+06	0.342088	3.420879E-06	24.305050
13		26.981540	3.081537E+06	0.308154	3.081537E-06	26.981540
14		28.085510	2.960410E+06	0.296041	2.960410E-06	28.085510
15		30.973760	2.684357E+06	0.268436	2.684357E-06	30.973760
16		32.063310	2.593139E+06	0.259314	2.593139E-06	32.063310
17		35.452740	2.345224E+06	0.234522	2.345224E-06	35.452740
18		39.947660	2.081339E+06	0.208134	2.081339E-06	39.947660
19		39.094280	2.126772E+06	0.212677	2.126772E-06	39.094280
20		40.079150	2.074511E+06	0.207451	2.074511E-06	40.079150
21		44.955910	1.849470E+06	0.184947	1.849470E-06	44.955910
22		47.866950	1.736994E+06	0.173699	1.736994E-06	47.866950
23		50.941470	1.632160E+06	0.163216	1.632160E-06	50.941470
24		51.995920	1.599061E+06	0.159906	1.599061E-06	51.995920
25		54.938050	1.513425E+06	0.151343	1.513425E-06	54.938050
26		55.846210	1.488814E+06	0.148881	1.488814E-06	55.846210
27		58.933200	1.410828E+06	0.141083	1.410828E-06	58.933200
28		58.686790	1.416752E+06	0.141675	1.416752E-06	58.686790
29		63.545040	1.308436E+06	0.130844	1.308436E-06	63.545040
30		65.410350	1.271123E+06	0.127112	1.271123E-06	65.410350
31		69.723230	1.192495E+06	0.119250	1.192495E-06	69.723230
32		72.632250	1.144734E+06	0.114473	1.144734E-06	72.632250
33		74.921590	1.109755E+06	0.110976	1.109755E-06	74.921590
34		78.989270	1.052607E+06	0.105261	1.052607E-06	78.989270
35		79.903530	1.040563E+06	0.104056	1.040563E-06	79.903530
36		83.800020	9.921791E+05	0.099218	9.921791E-07	83.800020
37		85.467670	9.728196E+05	0.097282	9.728196E-07	85.467670
38		87.617050	9.489549E+05	0.094895	9.489549E-07	87.617050
39		88.905850	9.351986E+05	0.093520	9.351986E-07	88.905850
40		91.223250	9.114412E+05	0.091144	9.114412E-07	91.223250
41		92.906380	8.949291E+05	0.089493	8.949291E-07	92.906380
42		95.930790	8.667147E+05	0.086671	8.667147E-07	95.930790
43		97.907210	8.492186E+05	0.084922	8.492186E-07	97.907210
44		101.070140	8.226428E+05	0.082264	8.226428E-07	101.070140
45		102.905500	8.079707E+05	0.080797	8.079707E-07	102.905500
46		106.428220	7.812273E+05	0.078123	7.812273E-07	106.428220
47		107.868330	7.707974E+05	0.077080	7.707974E-07	107.868330
48		112.396760	7.397422E+05	0.073974	7.397422E-07	112.396760
49		114.817880	7.241435E+05	0.072414	7.241435E-07	114.817880
50		118.639440	7.008178E+05	0.070082	7.008178E-07	118.639440
51		121.757990	6.828679E+05	0.068287	6.828679E-07	121.757990
52		126.521590	6.571576E+05	0.065716	6.571576E-07	126.521590
53		126.904470	6.551749E+05	0.065517	6.551749E-07	126.904470
54		131.293080	6.332750E+05	0.063328	6.332750E-07	131.293080
55		132.905430	6.255924E+05	0.062559	6.255924E-07	132.905430
56		137.340250	6.053915E+05	0.060539	6.053915E-07	137.340250
57		140.010100	5.938473E+05	0.059385	5.938473E-07	140.010100
58		140.114870	5.934033E+05	0.059340	5.934033E-07	140.114870
59		140.907650	5.900647E+05	0.059006	5.900647E-07	140.907650
60		144.236140	5.764479E+05	0.057645	5.764479E-07	144.236140
61		144.912760	5.737564E+05	0.057376	5.737564E-07	144.912760
62		150.502160	5.524481E+05	0.055245	5.524481E-07	150.502160
63		151.962580	5.471388E+05	0.054714	5.471388E-07	151.962580
64		157.251030	5.287382E+05	0.052874	5.287382E-07	157.251030
65		158.925350	5.231678E+05	0.052317	5.231678E-07	158.925350
66		162.489860	5.116912E+05	0.051169	5.116912E-07	162.489860
67		164.930330	5.041197E+05	0.050412	5.041197E-07	164.930330
68		167.262220	4.970915E+05	0.049709	4.970915E-07	167.262220
69		168.934220	4.921716E+05	0.049217	4.921716E-07	168.934220
70		173.023390	4.805398E+05	0.048054	4.805398E-07	173.023390
71		174.966830	4.752022E+05	0.047520	4.752022E-07	174.966830
72		178.418210	4.660098E+05	0.046601	4.660098E-07	178.418210
73		180.947890	4.594949E+05	0.045949	4.594949E-07	180.947890
74		183.848910	4.522443E+05	0.045224	4.522443E-07	183.848910
75		186.206720	4.465179E+05	0.044652	4.465179E-07	186.206720
76		190.236110	4.370602E+05	0.043706	4.370602E-07	190.236110
77		192.216070	4.325581E+05	0.043256	4.325581E-07	192.216070
78		195.080070	4.262077E+05	0.042621	4.262077E-07	195.080070
79		196.966560	4.221256E+05	0.042213	4.221256E-07	196.966560
80		200.598960	4.144818E+05	0.041448	4.144818E-07	200.598960
81		204.383800	4.068063E+05	0.040681	4.068063E-07	204.383800
82		207.257690	4.011655E+05	0.040117	4.011655E-07	207.257690
83		208.980390	3.978585E+05	0.039786	3.978585E-07	208.980390
84		209.000000	3.978212E+05	0.039782	3.978212E-07	209.000000
85		210.000000	3.959268E+05	0.039593	3.959268E-07	210.000000
86		222.000000	3.745253E+05	0.037453	3.745253E-07	222.000000
87		223.000000	3.728459E+05	0.037285	3.728459E-07	223.000000
88		226.000000	3.678966E+05	0.036790	3.678966E-07	226.000000
89		227.000000	3.662759E+05	0.036628	3.662759E-07	227.000000
90		232.038050	3.583232E+05	0.035832	3.583232E-07	232.038050
91		231.035880	3.598775E+05	0.035988	3.598775E-07	231.035880
92		238.028920	3.493047E+05	0.034930	3.493047E-07	238.028920
93		237.000000	3.508212E+05	0.035082	3.508212E-07	237.000000
94		244.000000	3.407567E+05	0.034076	3.407567E-07	244.000000
95		243.000000	3.421590E+05	0.034216	3.421590E-07	243.000000
96		247.000000	3.366179E+05	0.033662	3.366179E-07	247.000000
97		247.000000	3.366179E+05	0.033662	3.366179E-07	247.000000
98		251.000000	3.312535E+05	0.033125	3.312535E-07	251.000000
99		252.000000	3.299390E+05	0.032994	3.299390E-07	252.000000
100		257.000000	3.235199E+05	0.032352	3.235199E-07	257.000000
101		258.000000	3.222660E+05	0.032227	3.222660E-07	258.000000
102		259.000000	3.210217E+05	0.032102	3.210217E-07	259.000000
103		262.000000	3.173459E+05	0.031735	3.173459E-07	262.000000
104		267.000000	3.114031E+05	0.031140	3.114031E-07	267.000000
105		268.000000	3.102411E+05	0.031024	3.102411E-07	268.000000
106		271.000000	3.068067E+05	0.030681	3.068067E-07	271.000000
107		274.000000	3.034475E+05	0.030345	3.034475E-07	274.000000
108		269.000000	3.090878E+05	0.030909	3.090878E-07	269.000000
109		276.000000	3.012486E+05	0.030125	3.012486E-07	276.000000
110		281.000000	2.958883E+05	0.029589	2.958883E-07	281.000000
111		281.000000	2.958883E+05	0.029589	2.958883E-07	281.000000
112		285.000000	2.917355E+05	0.029174	2.917355E-07	285.000000
113		286.000000	2.907155E+05	0.029072	2.907155E-07	286.000000
114		289.000000	2.876977E+05	0.028770	2.876977E-07	289.000000
115		288.000000	2.886966E+05	0.028870	2.886966E-07	288.000000
116		293.000000	2.837701E+05	0.028377	2.837701E-07	293.000000
117		294.000000	2.828049E+05	0.028280	2.828049E-07	294.000000
118		294.000000	2.828049E+05	0.028280	2.828049E-07	294.000000
